#Sample_Temp    2.00
#Magnetic_Field    1.00
#Polarisation   0.910    -0.910
#Wavelength    1.375
    1    1    1    16.257    1421.6    42.198    2232.7    42.375
    2    2    0    26.699    1357.6    27.656    237.8     25.577
    3    1    1    31.417    946       19.831    855.6     19.335
    2    2    2    32.853    103.4     4.465     26.2      2.124
    5    1    1    50.197    276.1     12.07     295.8     11.857
    3    3    3    50.197    276.1     12.07     295.8     11.857
    4    4    0    55.005    1730.4    26.284    1038.5    26.325
