#Sample_Temp   10.00
#Magnetic_Field    5.00 
#Polarisation   0.910    -0.910 
#Wavelength    1.375 
    1    1    1    12.406   1719.39      0.29   2124.65      0.45
    2    0    0    14.480    569.87      0.19    609.58      0.20
    2    2    0    20.878    157.38      0.15    295.94      0.17
    3    1    1    24.710    617.48      0.16   1466.20      0.33
    2    2    2    25.889   3684.69      0.45    559.10      0.17
    4    0    0    30.164    308.63      0.17    928.11      0.27
    3    3    1    33.088   2055.13      0.31    459.75      0.19
    4    2    2    37.436    415.47      0.19    309.96      0.18
    4    4    0    43.710   5542.89      0.72   2293.73      0.52
